Folder: stockastic/data/NASDAQ/20211026

Note: README.md
# stockastic
Stock Data Science With Python
## introduction
This is a startup project to test some of the data science tools on stock data to find meaningful trends.
## Requirements: Starting with python
- You will need a git installed on your machine.
- You will require Python 3 on your machine with a working version of pip3 to start this project
- you can check versions of python and pip using any of the following comments: `python --version`, `python3 --version`, `pip --version`, `pip3 --version`
- Clone the current repository `git clone https://github.com/hn617/stockastic.git`
- `cd stockastic`
- make a new git branch `git checkout -b lesson1`
- `pip3 install -r requirements`
- make sure you have all the requirements installed into the python3
- Learn about TSX stock tickers and daily stock prices (open, close), and volume. 

## Lesson 1: Read data from a file into the pandas' data frame

In this lesson, we are going to build a python script to read TSX historical stock prices (2019-2020) and sort the stock tickers according to their average volume.
<details>
<summary> Read data from CSV file ...   </summary>   
  
  0. data directory contains daily stock values for TSX stocks for the year 2019-2020. Files' names are stock tickers. Open a couple of the CSV files and check the data structure. We are going to create a ticker dictionary containing file path and stock details. 
```
  ticker_dic = {'<TIKER_0>' : {
                              'FILE_PATH': '<full_path_to_ticker_0_file>'},
                              'mean_volume' : xx,
                              'order_volume' : xx,
                              },
                 '<TIKER_1>' : {
                              'FILE_PATH': '<full_path_to_ticker_1_file>'},
                              'mean_volume' : xx,
                              'order_volume' : xx,
                              }
```
  later we will add fore data into the ticker dictionary.
  1. Use python to list all the CSV files (stock tickers) from `./data/TSX/20190222`
```
import os
mypath = ""
onlyfiles = [f for f in os.listdir(mypath) if ".csv" in f]
```
  Then create a dictionary with ticker name as key and full file path to the csv file as value. You can do something like.
```
ticker_dic = {}
for filename in onlyfiles:
  ticker_dic[filename[:-4]] = {'filepath':os.path.join(mypath, filename)}
```
  2. Write a function to read a CSV file for a given ticker as a panda dataframe. [HELP](https://pandas.pydata.org/pandas-docs/stable/reference/api/pandas.read_csv.html)
  
``` 
import pandas as pd
  import json
df = pd.read_csv("full_path_to_csv_file", header=0,sep=",", thousands=',', index_col=None, parse_dates=['Date'])
if len(df['Volume']) == 0:
  del ticker_dic[ticker]
```
  3. Write a function to return the `mean` of the stock `Volumes` for a input ticker. `df.mean(axis=0)`

```
  def get_mean_volume(ticker):
    mean_volume = ... //finds mean volume
    return mean_volume
```
  4. Modify the function to add the m

File: TGA.csv
Date,High,Low,Open,Close,Volume,Adj Close
2000-01-03,0.40625,0.3125,0.3125,0.390625,17500.0,0.328918
2000-02-10,0.5,0.453125,0.5,0.453125,43500.0,0.381545
2000-03-21,0.8125,0.59375,0.8125,0.734375,196500.0,0.618366
2000-04-28,0.6875,0.59375,0.6875,0.59375,39200.0,0.499955
2000-06-07,0.4375,0.40625,0.421875,0.4375,33800.0,0.368388
2000-07-17,0.515625,0.453125,0.5,0.46875,47700.0,0.394701
2000-08-23,0.640625,0.546875,0.578125,0.640625,317900.0,0.539425
2000-10-02,0.65625,0.609375,0.65625,0.609375,28600.0,0.513112
2000-11-08,0.796875,0.609375,0.78125,0.640625,283900.0,0.539425
2000-12-18,0.453125,0.421875,0.453125,0.4375,102100.0,0.368388
2001-01-29,0.40625,0.359375,0.40625,0.40625,43000.0,0.342075
2001-03-08,0.40625,0.375,0.40625,0.375,16000.0,0.315761
2001-04-17,0.38,0.34,0.38,0.38,25000.0,0.319971
2001-05-24,0.45,0.45,0.45,0.45,1700.0,0.378913
2001-07-03,0.32,0.31,0.32,0.31,20000.0,0.261029
2001-08-10,0.31,0.28,0.28,0.3,22100.0,0.252609
2001-09-25,0.22,0.19,0.22,0.19,18500.0,0.159986
2001-11-01,0.32,0.26,0.32,0.26,18800.0,0.218928
2001-12-11,0.31,0.25,0.25,0.31,42900.0,0.261029
2002-01-22,0.45,0.36,0.45,0.4,52500.0,0.336812
2002-03-01,0.29,0.28,0.28,0.29,35000.0,0.244189
2002-04-10,0.33,0.29,0.29,0.3,21000.0,0.252609
2002-05-17,0.39,0.37,0.37,0.39,37400.0,0.328392
2002-06-26,0.32,0.32,0.32,0.32,1500.0,0.26945
2002-08-05,0.35,0.3,0.3,0.35,3100.0,0.29471
2002-09-12,0.26,0.26,0.26,0.26,12900.0,0.218928
2002-10-21,0.37,0.33,0.37,0.35,45600.0,0.29471
2002-11-27,0.31,0.29,0.29,0.31,35400.0,0.261029
2003-01-08,0.41,0.38,0.39,0.39,63100.0,0.328392
2003-02-18,0.42,0.38,0.42,0.4,14900.0,0.336812
2003-03-27,0.48,0.45,0.45,0.46,91000.0,0.387334
2003-05-06,0.49,0.45,0.49,0.46,9900.0,0.387334
2003-06-13,0.54,0.49,0.49,0.54,35000.0,0.454696
2003-07-23,0.52,0.5,0.52,0.51,31500.0,0.429435
2003-08-29,1.06,0.92,0.95,1.04,823900.0,0.875711
2003-10-08,1.05,1.02,1.04,1.04,67400.0,0.875711
2003-11-14,1.5,1.38,1.42,1.5,218400.0,1.26304
2003-12-24,2.5,2.29,2.3,2.5,292400.0,2.10507
2004-02-04,2.45,2.16,2.45,2.16,277600.0,1.81878
2004-03-15,2.47,2.19,2.41,2.45,323800.0,2.06297
2004-04-22,2.59,2.48,2.48,2.52,160500.0,2.12192
2004-06-01,2.48,2.35,2.45,2.45,101800.0,2.06297
2004-07-12,2.85,2.6,2.84,2.66,353700.0,2.2398
2004-08-18,2.38,2.32,2.33,2.38,61700.0,2.00403
2004-09-27,3.11,2.9,2.94,3.03,853200.0,2.55135
2004-11-03,3.93,3.78,3.8,3.9,205900.0,3.28392
2004-12-13,4.86,4.72,4.84,4.76,238200.0,4.00806
2005-01-21,6.02,5.69,5.7,5.9,479700.0,4.96798
2005-03-02,7.98,7.57,7.66,7.7,775800.0,6.48363
2005-04-11,6.15,5.87,6.15,6.01,531400.0,5.0606
2005-05-18,4.91,4.46,4.76,4.52,433100.0,3.80598
2005-06-27,7.35,6.91,6.91,7.23,818900.0,6.08788
2005-08-04,6.47,6.31,6.42,6.33,288600.0,5.33005
2005-09-13,6.12,6.02,6.1,6.04,203000.0,5.08586
2005-10-20,5.02,4.53,4.96,4.57,482200.0,3.84808
2005-11-29,5.2,5.05,5.2,5.11,111100.0,4.30277
2006-01-09,5.15,5.0,5.15,5.05,312300.0,4.25225
2006-02-16,5.68,5.2,5.2,5.68,417300.0,4.78273
2006-03-28,5.45,5.35,5.4,5.4,417500.0,4.54696
2006-05-05,6.02,5.81,5.95,5.82,235500.0,4.90061
2006-06-14,4.57,4.13,4.3,4.51,286100.0,3.79756
2006-07-24,4.6,4.5,4.5,4.53,113500.0,3.8144
2006-08-30,4.79,4.75,4.77,4.77,81900.0,4.01648
2006-10-09,4.63,4.35,4.4,4.46,191900.0,3.75545
2006-11-15,5.0,4.82,4.82,4.96,233800.0,4.17647
2006-12-26,5.07,4.91,4.91,4.99,76900.0,4.20173
2007-02-06,4.78,4.66,4.7,4.78,117400.0,4.0249
2007-03-16,3.98,3.65,3.95,3.97,513400.0,3.34286
2007-04-25,4.4,4.26,4.28,4.28,229200.0,3.60389
2007-06-04,4.07,4.01,4.01,4.01,172900.0,3.37654
2007-07-12,5.0,4.92,4.95,4.98,250900.0,4.19331
2007-08-20,3.95,3.74,3.9,3.78,153200.0,3.18287
2007-09-27,5.29,5.04,5.2,5.17,811300.0,4.35329
2007-11-05,5.76,5.33,5.76,5.48,156300.0,4.61432
2007-12-13,5.4,5.25,5.25,5.39,81000.0,4.53854
2008-01-24,4.75,4.4,4.4,4.72,156500.0,3.97438
2008-03-04,5.51,5.16,5.48,5.31,311500.0,4.47118
2008-04-11,4.8,4.67,4.72,4.68,99300.0,3.9407
2008-05-20,5.19,5.02,5.07,5.14,221900.0,4.32803
2008-06-27,5.35,5.23,5.26,5.31,104900.0,4.47118
2008-08-06,4.03,3.85,3.94,4.03,128700.0,3.39338
2008-09-15,3.13,2.88,3.0,3.06,136900.0,2.57661
2008-10-22,2.04,1.79,2.04,1.81,79300.0,1.52407
2008-12-01,2.08,1.85,1.99,2.0,171500.0,1.68406
2009-01-09,2.56,2.48,2.53,2.51,46700.0,2.11349
2009-02-19,2.62,2.53,2.58,2.53,56500.0,2.13034
2009-03-30,2.88,2.6,2.88,2.81,265000.0,2.3661
2009-05-07,2.87,2.64,2.87,2.7,474000.0,2.27348
2009-06-16,2.76,2.66,2.75,2.68,104600.0,2.25664
2009-07-24,3.03,3.0,3.01,3.01,111300.0,2.53451
2009-09-01,3.15,3.0,3.13,3.08,229500.0,2.59345
2009-10-09,4.01,3.89,3.9,4.01,149600.0,3.37654
2009-11-17,3.6,3.52,3.55,3.59,91800.0,3.02289
2009-12-28,3.34,3.22,3.33,3.28,154000.0,2.76186
2010-02-05,3.65,3.52,3.63,3.64,57000.0,3.06499
2010-03-17,4.8,4.56,4.73,4.59,195800.0,3.86492
2010-04-26,7.31,7.2,7.22,7.27,187600.0,6.12156
2010-06-03,7.91,7.48,7.74,7.84,551200.0,6.60151
2010-07-13,7.66,7.48,7.52,7.6,143400.0,6.39943
2010-08-19,7.82,7.63,7.69,7.65,100000.0,6.44153
2010-09-28,9.7,9.51,9.61,9.6,270200.0,8.08349
2010-11-04,12.85,12.0,12.04,12.82,904400.0,10.7948
2010-12-14,17.14,14.96,16.96,15.1,2376400.0,12.7147
2011-01-24,14.41,13.95,14.32,14.29,272500.0,12.0326
2011-03-03,14.59,14.21,14.38,14.48,248100.0,12.1926
2011-04-11,15.47,14.88,15.44,15.05,184900.0,12.6726
2011-05-19,13.22,12.79,12.97,12.89,66600.0,10.8538
2011-06-28,11.04,10.48,10.55,10.99,174300.0,9.25391
2011-08-05,9.62,8.62,9.6,9.13,241600.0,7.68773
2011-09-14,9.56,8.96,9.22,9.4,76500.0,7.91508
2011-10-21,9.67,9.29,9.39,9.52,51400.0,8.01612
2011-11-30,8.48,8.04,8.38,8.15,121600.0,6.86254
2012-01-10,9.5,9.19,9.24,9.28,165700.0,7.81404
2012-02-17,10.78,10.44,10.49,10.71,97800.0,9.01814
2012-03-28,12.5,12.25,12.37,12.33,145300.0,10.3822
2012-05-07,13.05,11.52,12.96,12.29,410300.0,10.3485
2012-06-14,10.07,9.52,9.86,9.59,193900.0,8.07507
2012-07-24,8.87,8.63,8.75,8.76,76300.0,7.37618
2012-08-30,10.54,10.23,10.46,10.26,115000.0,8.63923
2012-10-09,11.27,11.08,11.1,11.21,45600.0,9.43915
2012-11-19,11.43,10.81,10.89,11.26,75300.0,9.48126
2012-12-28,9.46,9.28,9.28,9.34,56600.0,7.86456
2013-02-07,8.92,8.76,8.8,8.8,97600.0,7.40986
2013-03-19,9.08,8.96,9.01,8.99,64100.0,7.56985
2013-04-26,8.11,7.78,8.11,7.93,51800.0,6.6773
2013-06-05,7.31,7.05,7.21,7.15,70000.0,6.02051
2013-07-15,6.12,6.0,6.0,6.08,60500.0,5.11954
2013-08-21,6.82,6.66,6.7,6.68,49800.0,5.62476
2013-09-30,7.95,7.75,7.82,7.86,181100.0,6.61835
2013-11-06,9.59,9.1,9.59,9.19,174300.0,7.73825
2013-12-16,8.76,8.57,8.57,8.72,124700.0,7.3425
2014-01-27,8.38,7.86,8.38,7.94,190900.0,6.68572
2014-03-06,7.96,7.7,7.78,7.82,107500.0,6.58467
2014-04-14,7.51,7.35,7.39,7.42,235000.0,6.24786
2014-05-22,6.77,6.57,6.62,6.61,51800.0,5.65158
2014-07-01,7.58,7.47,7.55,7.47,36500.0,6.47646
2014-08-08,6.42,6.09,6.16,6.37,158600.0,5.52276
2014-09-17,6.61,6.48,6.57,6.5,78100.0,5.68013
2014-10-24,4.82,4.66,4.8,4.77,124900.0,4.16834
2014-12-03,3.48,3.17,3.17,3.29,356000.0,2.87502
2015-01-13,3.02,2.83,2.95,2.88,398900.0,2.55939
2015-02-23,3.01,2.89,2.97,2.94,336700.0,2.61271
2015-04-01,3.75,3.55,3.55,3.7,238700.0,3.34422
2015-05-11,4.26,4.05,4.26,4.08,215800.0,3.68768
2015-06-18,3.99,3.88,3.98,3.88,84700.0,3.54957
2015-07-28,2.95,2.81,2.83,2.88,153900.0,2.63473
2015-09-03,2.93,2.74,2.85,2.8,248500.0,2.56155
2015-10-13,2.88,2.76,2.83,2.77,196800.0,2.58156
2015-11-19,2.11,1.96,1.96,2.03,380400.0,1.8919
2015-12-30,1.79,1.7,1.71,1.78,171800.0,1.68367
2016-02-09,1.26,1.18,1.19,1.21,126800.0,1.14451
2016-03-18,1.74,1.64,1.72,1.69,138000.0,1.59854
2016-04-27,2.03,1.95,2.02,1.99,125000.0,1.8823
2016-06-06,1.76,1.7,1.75,1.73,82300.0,1.63637
2016-07-14,1.82,1.75,1.76,1.82,29500.0,1.7215
2016-08-22,1.99,1.87,1.99,1.89,133000.0,1.78771
2016-09-29,2.0,1.93,1.97,1.95,60200.0,1.84447
2016-11-07,1.89,1.78,1.8,1.81,42200.0,1.71204
2016-12-15,1.74,1.63,1.7,1.65,213200.0,1.5607
2017-01-26,1.8,1.74,1.74,1.78,86100.0,1.68367
2017-03-07,1.61,1.58,1.58,1.6,91600.0,1.51341
2017-04-13,1.65,1.57,1.65,1.57,58800.0,1.48503
2017-05-23,1.64,1.51,1.64,1.57,77000.0,1.48503
2017-06-30,1.35,1.29,1.35,1.34,10200.0,1.26748
2017-08-09,1.26,1.24,1.25,1.25,18700.0,1.18235
2017-09-18,1.17,1.09,1.1,1.12,289100.0,1.05939
2017-10-25,1.58,1.54,1.57,1.54,19400.0,1.45665
2017-12-04,1.47,1.42,1.46,1.45,101100.0,1.37153
2018-01-12,1.49,1.45,1.49,1.47,138000.0,1.39044
2018-02-22,1.34,1.28,1.3,1.3,77300.0,1.22964
2018-04-03,1.34,1.31,1.34,1.32,17400.0,1.24856
2018-05-10,2.14,1.98,2.14,2.0,285000.0,1.89176
2018-06-19,2.41,2.27,2.34,2.38,239500.0,2.25119
2018-07-27,3.36,3.14,3.36,3.18,540200.0,3.0079
2018-09-05,3.37,3.19,3.3,3.3,448500.0,3.1533
2018-10-12,3.17,3.05,3.05,3.1,400000.0,2.96219
2018-11-20,2.3,2.08,2.26,2.14,271700.0,2.04487
2019-01-02,1.94,1.77,1.86,1.8,271300.0,1.71998
2019-02-11,1.86,1.8,1.83,1.85,50600.0,1.76776
2019-03-21,2.16,2.09,2.13,2.09,124400.0,1.99709
2019-04-30,1.97,1.92,1.95,1.95,58200.0,1.89944
2019-06-07,1.55,1.51,1.51,1.55,81600.0,1.50981
2019-07-17,1.47,1.43,1.47,1.43,175400.0,1.39293
2019-08-23,1.43,1.34,1.43,1.35,177600.0,1.315
2019-10-02,1.32,1.26,1.31,1.28,233300.0,1.28
2019-11-08,1.24,1.2,1.23,1.23,72400.0,1.23
2019-12-18,1.32,1.24,1.28,1.3,115400.0,1.3
2020-01-29,1.27,1.23,1.27,1.24,36800.0,1.24
2020-03-09,0.8,0.64,0.8,0.69,884200.0,0.69
2020-04-16,0.47,0.38,0.43,0.41,84700.0,0.41
2020-05-26,0.57,0.51,0.52,0.56,183000.0,0.56
2020-07-02,0.62,0.58,0.59,0.6,114900.0,0.6
2020-08-11,0.63,0.58,0.62,0.61,108600.0,0.61
2020-09-18,0.45,0.4,0.45,0.42,385600.0,0.42
2020-10-27,0.42,0.4,0.41,0.4,122300.0,0.4
2020-12-04,0.75,0.64,0.64,0.73,2558500.0,0.73
2021-01-14,1.19,1.12,1.16,1.18,639600.0,1.18
2021-02-24,1.63,1.47,1.49,1.58,780700.0,1.58
2021-04-05,1.66,1.53,1.66,1.55,498800.0,1.55
2021-05-12,1.61,1.51,1.53,1.53,277400.0,1.53
2021-06-21,1.97,1.83,1.85,1.9,322500.0,1.9
2021-07-29,1.73,1.63,1.63,1.73,110900.0,1.73
2021-09-07,1.91,1.78,1.91,1.82,120900.0,1.82
2021-10-14,3.0,2.84,2.89,2.87,586700.0,2.87
2021-10-25,2.83,2.69,2.71,2.82,560500.0,2.82